File: SD_team/data/316SS.txt
#FORMAT      : EMSA/MAS Spectral Data File
#VERSION     : 1.0
#TITLE       : Spectrum 2
#DATE        : 22-NOV-2024
#TIME        : 10:32
#OWNER       :
#NPOINTS     : 2048.0
#NCOLUMNS    : 1.0
#XUNITS      : keV
#YUNITS      : counts
#DATATYPE    : XY
#XPERCHAN    : 0.01
#OFFSET      : -0.2
#SIGNALTYPE  : EDS
#CHOFFSET    : 20.0
#LIVETIME    : 94.2907
#REALTIME    : 96.913
#BEAMKV      : 20.0
#MAGCAM      : 60.0
#XTILTSTGE   : 0.0
#AZIMANGLE   : 0.0
#ELEVANGLE   : 35.0
#XPOSITION mm: 27.1809
#YPOSITION mm: 30.9046
#ZPOSITION mm: 10.0000
##OXINSTPT   : 4
##OXINSTSTROB: 48.88
##OXINSTNDET : 1
##OXINSTELEMS: 24	26	6	28	25	14	42
##OXINSTLABEL: 24	5.415	 Cr
##OXINSTLABEL: 24	5.947	 Cr
##OXINSTLABEL: 24	0.573	 Cr
##OXINSTLABEL: 24	0.5	 Cr
##OXINSTLABEL: 26	6.404	 Fe
##OXINSTLABEL: 26	7.058	 Fe
##OXINSTLABEL: 26	0.703	 Fe
##OXINSTLABEL: 26	0.615	 Fe
##OXINSTLABEL: 6	0.277	 C
##OXINSTLABEL: 28	7.478	 Ni
##OXINSTLABEL: 28	8.265	 Ni
##OXINSTLABEL: 28	0.851	 Ni
##OXINSTLABEL: 28	0.762	 Ni
##OXINSTLABEL: 28	0.743	 Ni
##OXINSTLABEL: 25	5.899	 Mn
##OXINSTLABEL: 25	6.49	 Mn
##OXINSTLABEL: 25	0.636	 Mn
##OXINSTLABEL: 25	0.556	 Mn
##OXINSTLABEL: 14	1.74	 Si
##OXINSTLABEL: 42	17.48	 Mo
##OXINSTLABEL: 42	19.609	 Mo
##OXINSTLABEL: 42	19.965	 Mo
##OXINSTLABEL: 42	2.293	 Mo
##OXINSTLABEL: 42	2.395	 Mo
##OXINSTLABEL: 42	2.12	 Mo
##OXINSTLABEL: 42	2.831	 Mo
##OXINSTLABEL: 42	2.016	 Mo
##OXINSTLABEL: 42	0.193	 Mo
#SPECTRUM    : Spectral Data Starts Here
-0.2	0
-0.18	0
-0.16	0
-0.14	0
-0.12	0
-0.1	0
-0.08	1
-0.06	8
-0.04	118
-0.02	728
0	1992
0.02	3570
0.04	5211
0.06	3828
0.08	1131
0.1	180
0.12	56
0.14	63
0.16	64
0.18	68
0.2	89
0.22	134
0.24	228
0.26	348
0.28	361
0.3	219
0.32	115
0.34	76
0.36	99
0.38	107
0.4	133
0.42	145
0.44	203
0.46	338
0.48	449
0.5	558
0.52	584
0.54	641
0.56	721
0.58	851
0.6	957
0.62	909
0.64	868
0.66	1026
0.68	1664
0.7	2188
0.72	1952
0.74	1096
0.76	484
0.78	264
0.8	231
0.82	382
0.84	554
0.86	621
0.88	477
0.9	293
0.92	167
0.94	136
0.96	118
0.98	115
1	106
1.02	97
1.04	115
1.06	106
1.08	98
1.1	114
1.12	115
1.14	140
1.16	125
1.18	120
1.2	137
1.22	132
1.24	161
1.26	160
1.28	140
1.3	155
1.32	160
1.34	188
1.36	157
1.38	186
1.4	172
1.42	193
1.44	197
1.46	222
1.48	220
1.5	211
1.52	237
1.54	208
1.56	190
1.58	195
1.6	178
1.62	197
1.64	189
1.66	185
1.68	217
1.7	283
1.72	313
1.74	342
1.76	333
1.78	306
1.8	273
1.82	238
1.84	222
1.86	231
1.88	216
1.9	213
1.92	210
1.94	221
1.96	208
1.98	204
2	227
2.02	223
2.04	222
2.06	215
2.08	246
2.1	235
2.12	230
2.14	251
2.16	221
2.18	248
2.2	240
2.22	272
2.24	317
2.26	420
2.28	513
2.3	524
2.32	497
2.34	439
2.36	410
2.38	355
2.4	346
2.42	315
2.44	310
2.46	276
2.48	278
2.5	241
2.52	246
2.54	234
2.56	272
2.58	215
2.6	218
2.62	222
2.64	237
2.66	213
2.68	222
2.7	204
2.72	214
2.74	204
2.76	218
2.78	212
2.8	204
2.82	214
2.84	198
2.86	224
2.88	198
2.9	196
2.92	195
2.94	203
2.96	203
2.98	197
3	211
3.02	194
3.04	176
3.06	195
3.08	214
3.1	200
3.12	200
3.14	192
3.16	204
3.18	192
3.2	204
3.22	195
3.24	173
3.26	200
3.28	182
3.3	206
3.32	187
3.34	178
3.36	195
3.38	187
3.4	192
3.42	182
3.44	171
3.46	190
3.48	192
3.5	176
3.52	165
3.54	183
3.56	185
3.58	196
3.6	178
3.62	189
3.64	191
3.66	199
3.68	185
3.7	211
3.72	177
3.74	174
3.76	175
3.78	164
3.8	181
3.82	149
3.84	152
3.86	159
3.88	172
3.9	147
3.92	148
3.94	164
3.96	171
3.98	151
4	167
4.02	145
4.04	175
4.06	150
4.08	160
4.1	163
4.12	153
4.14	137
4.16	150
4.18	163
4.2	154
4.22	140
4.24	163
4.26	145
4.28	145
4.3	142
4.32	149
4.34	151
4.36	135
4.38	150
4.4	140
4.42	140
4.44	145
4.46	139
4.48	151
4.5	156
4.52	134
4.54	139
4.56	152
4.58	145
4.6	132
4.62	155
4.64	162
4.66	147
4.68	138
4.7	156
4.72	140
4.74	141
4.76	127
4.78	124
4.8	132
4.82	124
4.84	125
4.86	133
4.88	141
4.9	135
4.92	134
4.94	138
4.96	123
4.98	142
5	120
5.02	127
5.04	135
5.06	138
5.08	116
5.1	124
5.12	132
5.14	110
5.16	122
5.18	125
5.2	128
5.22	136
5.24	144
5.26	150
5.28	208
5.3	331
5.32	590
5.34	941
5.36	1435
5.38	1989
5.4	2376
5.42	2456
5.44	2201
5.46	1778
5.48	1206
5.5	748
5.52	457
5.54	268
5.56	176
5.58	127
5.6	104
5.62	113
5.64	113
5.66	120
5.68	122
5.7	114
5.72	117
5.74	114
5.76	103
5.78	131
5.8	154
5.82	188
5.84	253
5.86	324
5.88	422
5.9	483
5.92	503
5.94	539
5.96	510
5.98	419
6	302
6.02	262
6.04	178
6.06	125
6.08	105
6.1	98
6.12	105
6.14	102
6.16	93
6.18	106
6.2	110
6.22	143
6.24	220
6.26	349
6.28	645
6.3	1170
6.32	1939
6.34	3055
6.36	4125
6.38	4867
6.4	5199
6.42	5009
6.44	4228
6.46	3186
6.48	2145
6.5	1292
6.52	703
6.54	350
6.56	205
6.58	132
6.6	115
6.62	86
6.64	94
6.66	85
6.68	76
6.7	67
6.72	84
6.74	74
6.76	81
6.78	90
6.8	86
6.82	95
6.84	87
6.86	111
6.88	91
6.9	121
6.92	170
6.94	231
6.96	291
6.98	401
7	527
7.02	597
7.04	733
7.06	723
7.08	695
7.1	555
7.12	464
7.14	328
7.16	234
7.18	135
7.2	102
7.22	90
7.24	86
7.26	71
7.28	61
7.3	75
7.32	95
7.34	117
7.36	191
7.38	261
7.4	352
7.42	476
7.44	550
7.46	668
7.48	663
7.5	627
7.52	518
7.54	435
7.56	291
7.58	184
7.6	149
7.62	95
7.64	83
7.66	59
7.68	63
7.7	59
7.72	59
7.74	62
7.76	67
7.78	57
7.8	58
7.82	60
7.84	54
7.86	49
7.88	57
7.9	58
7.92	76
7.94	60
7.96	69
7.98	58
8	69
8.02	67
8.04	79
8.06	68
8.08	71
8.1	67
8.12	79
8.14	73
8.16	84
8.18	116
8.2	119
8.22	127
8.24	138
8.26	132
8.28	136
8.3	106
8.32	97
8.34	86
8.36	64
8.38	64
8.4	58
8.42	54
8.44	61
8.46	51
8.48	54
8.5	55
8.52	46
8.54	49
8.56	52
8.58	53
8.6	47
8.62	48
8.64	49
8.66	56
8.68	45
8.7	47
8.72	44
8.74	49
8.76	34
8.78	39
8.8	37
8.82	52
8.84	40
8.86	45
8.88	44
8.9	50
8.92	44
8.94	53
8.96	47
8.98	39
9	46
9.02	39
9.04	44
9.06	40
9.08	47
9.1	43
9.12	50
9.14	45
9.16	41
9.18	44
9.2	49
9.22	40
9.24	49
9.26	38
9.28	33
9.3	42
9.32	46
9.34	53
9.36	38
9.38	46
9.4	46
9.42	41
9.44	44
9.46	39
9.48	35
9.5	45
9.52	41
9.54	35
9.56	36
9.58	56
9.6	43
9.62	38
9.64	38
9.66	44
9.68	47
9.7	47
9.72	39
9.74	30
9.76	39
9.78	42
9.8	36
9.82	40
9.84	35
9.86	43
9.88	41
9.9	32
9.92	37
9.94	35
9.96	51
9.98	45
10	39
10.02	44
10.04	40
10.06	41
10.08	30
10.1	37
10.12	33
10.14	32
10.16	40
10.18	34
10.2	35
10.22	39
10.24	39
10.26	28
10.28	37
10.3	38
10.32	35
10.34	35
10.36	38
10.38	27
10.4	35
10.42	42
10.44	36
10.46	30
10.48	39
10.5	40
10.52	29
10.54	37
10.56	38
10.58	34
10.6	35
10.62	37
10.64	36
10.66	30
10.68	38
10.7	33
10.72	32
10.74	38
10.76	35
10.78	31
10.8	36
10.82	34
10.84	32
10.86	28
10.88	27
10.9	25
10.92	34
10.94	34
10.96	28
10.98	27
11	31
11.02	27
11.04	34
11.06	21
11.08	30
11.1	30
11.12	23
11.14	31
11.16	27
11.18	26
11.2	21
11.22	29
11.24	21
11.26	30
11.28	26
11.3	29
11.32	26
11.34	27
11.36	34
11.38	26
11.4	30
11.42	29
11.44	26
11.46	27
11.48	31
11.5	17
11.52	33
11.54	27
11.56	22
11.58	26
11.6	25
11.62	27
11.64	24
11.66	27
11.68	26
11.7	26
11.72	30
11.74	26
11.76	24
11.78	24
11.8	29
11.82	34
11.84	27
11.86	22
11.88	26
11.9	27
11.92	25
11.94	23
11.96	22
11.98	29
12	24
12.02	22
12.04	19
12.06	19
12.08	20
12.1	29
12.12	27
12.14	22
12.16	21
12.18	23
12.2	22
12.22	22
12.24	23
12.26	20
12.28	25
12.3	16
12.32	27
12.34	20
12.36	24
12.38	29
12.4	18
12.42	23
12.44	27
12.46	17
12.48	19
12.5	24
12.52	18
12.54	21
12.56	22
12.58	25
12.6	21
12.62	16
12.64	16
12.66	23
12.68	21
12.7	16
12.72	17
12.74	20
12.76	20
12.78	21
12.8	19
12.82	25
12.84	26
12.86	17
12.88	24
12.9	22
12.92	26
12.94	19
12.96	18
12.98	17
13	28
13.02	19
13.04	18
13.06	17
13.08	15
13.1	27
13.12	18
13.14	18
13.16	21
13.18	21
13.2	17
13.22	15
13.24	17
13.26	23
13.28	17
13.3	9
13.32	15
13.34	20
13.36	18
13.38	17
13.4	17
13.42	13
13.44	16
13.46	17
13.48	16
13.5	15
13.52	21
13.54	16
13.56	14
13.58	21
13.6	16
13.62	14
13.64	12
13.66	12
13.68	13
13.7	18
13.72	17
13.74	14
13.76	10
13.78	16
13.8	13
13.82	17
13.84	13
13.86	15
13.88	20
13.9	14
13.92	9
13.94	10
13.96	16
13.98	13
14	17
14.02	11
14.04	11
14.06	11
14.08	11
14.1	14
14.12	8
14.14	14
14.16	15
14.18	14
14.2	13
14.22	15
14.24	12
14.26	11
14.28	13
14.3	12
14.32	14
14.34	14
14.36	14
14.38	13
14.4	14
14.42	15
14.44	12
14.46	11
14.48	10
14.5	11
14.52	17
14.54	14
14.56	11
14.58	11
14.6	8
14.62	12
14.64	15
14.66	14
14.68	12
14.7	10
14.72	12
14.74	12
14.76	8
14.78	8
14.8	9
14.82	9
14.84	14
14.86	12
14.88	8
14.9	14
14.92	10
14.94	7
14.96	7
14.98	9
15	8
15.02	7
15.04	11
15.06	8
15.08	11
15.1	4
15.12	9
15.14	8
15.16	5
15.18	12
15.2	8
15.22	8
15.24	7
15.26	9
15.28	11
15.3	9
15.32	7
15.34	7
15.36	13
15.38	13
15.4	11
15.42	11
15.44	9
15.46	9
15.48	7
15.5	10
15.52	10
15.54	8
15.56	8
15.58	12
15.6	6
15.62	10
15.64	9
15.66	10
15.68	9
15.7	6
15.72	5
15.74	7
15.76	5
15.78	6
15.8	6
15.82	6
15.84	4
15.86	10
15.88	7
15.9	8
15.92	8
15.94	7
15.96	10
15.98	10
16	4
16.02	8
16.04	8
16.06	5
16.08	9
16.1	7
16.12	5
16.14	10
16.16	8
16.18	6
16.2	5
16.22	5
16.24	3
16.26	7
16.28	5
16.3	5
16.32	5
16.34	4
16.36	5
16.38	8
16.4	6
16.42	6
16.44	5
16.46	6
16.48	4
16.5	4
16.52	6
16.54	5
16.56	4
16.58	5
16.6	5
16.62	2
16.64	3
16.66	5
16.68	5
16.7	4
16.72	3
16.74	5
16.76	7
16.78	5
16.8	5
16.82	5
16.84	7
16.86	3
16.88	2
16.9	4
16.92	3
16.94	6
16.96	3
16.98	5
17	5
17.02	4
17.04	4
17.06	5
17.08	4
17.1	3
17.12	5
17.14	4
17.16	5
17.18	4
17.2	6
17.22	5
17.24	7
17.26	5
17.28	5
17.3	3
17.32	3
17.34	2
17.36	5
17.38	2
17.4	3
17.42	1
17.44	2
17.46	3
17.48	2
17.5	3
17.52	5
17.54	2
17.56	2
17.58	3
17.6	3
17.62	5
17.64	2
17.66	2
17.68	3
17.7	3
17.72	3
17.74	4
17.76	1
17.78	1
17.8	3
17.82	6
17.84	3
17.86	5
17.88	3
17.9	1
17.92	1
17.94	2
17.96	1
17.98	4
18	4
18.02	3
18.04	3
18.06	3
18.08	2
18.1	4
18.12	2
18.14	2
18.16	1
18.18	1
18.2	0
18.22	2
18.24	2
18.26	2
18.28	3
18.3	3
18.32	1
18.34	2
18.36	2
18.38	1
18.4	2
18.42	1
18.44	3
18.46	3
18.48	0
18.5	1
18.52	2
18.54	0
18.56	1
18.58	1
18.6	3
18.62	4
18.64	2
18.66	0
18.68	1
18.7	1
18.72	0
18.74	1
18.76	2
18.78	1
18.8	1
18.82	1
18.84	0
18.86	0
18.88	2
18.9	3
18.92	2
18.94	2
18.96	1
18.98	1
19	0
19.02	1
19.04	0
19.06	1
19.08	2
19.1	1
19.12	1
19.14	1
19.16	0
19.18	1
19.2	1
19.22	2
19.24	2
19.26	1
19.28	0
19.3	1
19.32	2
19.34	1
19.36	1
19.38	2
19.4	0
19.42	1
19.44	0
19.46	1
19.48	1
19.5	0
19.52	1
19.54	0
19.56	1
19.58	0
19.6	0
19.62	0
19.64	1
19.66	0
19.68	1
19.7	0
19.72	0
19.74	0
19.76	1
19.78	0
19.8	0
19.82	0
19.84	0
19.86	1
19.88	0
19.9	0
19.92	0
19.94	0
19.96	1
19.98	0
20	0
20.02	0
20.04	0
20.06	0
20.08	0
20.1	0
20.12	0
20.14	0
20.16	0
20.18	0
20.2	0
20.22	0
20.24	0
20.26	0
20.27	0
#ENDOFDATA   :