File: SD_team/data/SS_Spectrum 0 1.txt
#FORMAT      : EMSA/MAS Spectral Data File
#VERSION     : 1.0
#TITLE       : Spectrum 2
#DATE        : 22-NOV-2024
#TIME        : 10:32
#OWNER       :
#NPOINTS     : 2048.0
#NCOLUMNS    : 1.0
#XUNITS      : keV
#YUNITS      : counts
#DATATYPE    : XY
#XPERCHAN    : 0.01
#OFFSET      : -0.2
#SIGNALTYPE  : EDS
#CHOFFSET    : 20.0
#LIVETIME    : 94.2907
#REALTIME    : 96.913
#BEAMKV      : 20.0
#MAGCAM      : 60.0
#XTILTSTGE   : 0.0
#AZIMANGLE   : 0.0
#ELEVANGLE   : 35.0
#XPOSITION mm: 27.1809
#YPOSITION mm: 30.9046
#ZPOSITION mm: 10.0000
##OXINSTPT   : 4
##OXINSTSTROB: 48.88
##OXINSTNDET : 1
##OXINSTELEMS: 24,26,6,28,25,14,42
##OXINSTLABEL: 24, 5.415, Cr
##OXINSTLABEL: 24, 5.947, Cr
##OXINSTLABEL: 24, 0.573, Cr
##OXINSTLABEL: 24, 0.500, Cr
##OXINSTLABEL: 26, 6.404, Fe
##OXINSTLABEL: 26, 7.058, Fe
##OXINSTLABEL: 26, 0.703, Fe
##OXINSTLABEL: 26, 0.615, Fe
##OXINSTLABEL: 6, 0.277, C
##OXINSTLABEL: 28, 7.478, Ni
##OXINSTLABEL: 28, 8.265, Ni
##OXINSTLABEL: 28, 0.851, Ni
##OXINSTLABEL: 28, 0.762, Ni
##OXINSTLABEL: 28, 0.743, Ni
##OXINSTLABEL: 25, 5.899, Mn
##OXINSTLABEL: 25, 6.490, Mn
##OXINSTLABEL: 25, 0.636, Mn
##OXINSTLABEL: 25, 0.556, Mn
##OXINSTLABEL: 14, 1.740, Si
##OXINSTLABEL: 42, 17.480, Mo
##OXINSTLABEL: 42, 19.609, Mo
##OXINSTLABEL: 42, 19.965, Mo
##OXINSTLABEL: 42, 2.293, Mo
##OXINSTLABEL: 42, 2.395, Mo
##OXINSTLABEL: 42, 2.120, Mo
##OXINSTLABEL: 42, 2.831, Mo
##OXINSTLABEL: 42, 2.016, Mo
##OXINSTLABEL: 42, 0.193, Mo
#SPECTRUM    : Spectral Data Starts Here
-0.20000, 0.0
-0.18000, 0.0
-0.16000, 0.0
-0.14000, 0.0
-0.12000, 0.0
-0.10000, 0.0
-0.08000, 1.0
-0.06000, 8.0
-0.04000, 118.0
-0.02000, 728.0
0.00000, 1992.0
0.02000, 3570.0
0.04000, 5211.0
0.06000, 3828.0
0.08000, 1131.0
0.10000, 180.0
0.12000, 56.0
0.14000, 63.0
0.16000, 64.0
0.18000, 68.0
0.20000, 89.0
0.22000, 134.0
0.24000, 228.0
0.26000, 348.0
0.28000, 361.0
0.30000, 219.0
0.32000, 115.0
0.34000, 76.0
0.36000, 99.0
0.38000, 107.0
0.40000, 133.0
0.42000, 145.0
0.44000, 203.0
0.46000, 338.0
0.48000, 449.0
0.50000, 558.0
0.52000, 584.0
0.54000, 641.0
0.56000, 721.0
0.58000, 851.0
0.60000, 957.0
0.62000, 909.0
0.64000, 868.0
0.66000, 1026.0
0.68000, 1664.0
0.70000, 2188.0
0.72000, 1952.0
0.74000, 1096.0
0.76000, 484.0
0.78000, 264.0
0.80000, 231.0
0.82000, 382.0
0.84000, 554.0
0.86000, 621.0
0.88000, 477.0
0.90000, 293.0
0.92000, 167.0
0.94000, 136.0
0.96000, 118.0
0.98000, 115.0
1.00000, 106.0
1.02000, 97.0
1.04000, 115.0
1.06000, 106.0
1.08000, 98.0
1.10000, 114.0
1.12000, 115.0
1.14000, 140.0
1.16000, 125.0
1.18000, 120.0
1.20000, 137.0
1.22000, 132.0
1.24000, 161.0
1.26000, 160.0
1.28000, 140.0
1.30000, 155.0
1.32000, 160.0
1.34000, 188.0
1.36000, 157.0
1.38000, 186.0
1.40000, 172.0
1.42000, 193.0
1.44000, 197.0
1.46000, 222.0
1.48000, 220.0
1.50000, 211.0
1.52000, 237.0
1.54000, 208.0
1.56000, 190.0
1.58000, 195.0
1.60000, 178.0
1.62000, 197.0
1.64000, 189.0
1.66000, 185.0
1.68000, 217.0
1.70000, 283.0
1.72000, 313.0
1.74000, 342.0
1.76000, 333.0
1.78000, 306.0
1.80000, 273.0
1.82000, 238.0
1.84000, 222.0
1.86000, 231.0
1.88000, 216.0
1.90000, 213.0
1.92000, 210.0
1.94000, 221.0
1.96000, 208.0
1.98000, 204.0
2.00000, 227.0
2.02000, 223.0
2.04000, 222.0
2.06000, 215.0
2.08000, 246.0
2.10000, 235.0
2.12000, 230.0
2.14000, 251.0
2.16000, 221.0
2.18000, 248.0
2.20000, 240.0
2.22000, 272.0
2.24000, 317.0
2.26000, 420.0
2.28000, 513.0
2.30000, 524.0
2.32000, 497.0
2.34000, 439.0
2.36000, 410.0
2.38000, 355.0
2.40000, 346.0
2.42000, 315.0
2.44000, 310.0
2.46000, 276.0
2.48000, 278.0
2.50000, 241.0
2.52000, 246.0
2.54000, 234.0
2.56000, 272.0
2.58000, 215.0
2.60000, 218.0
2.62000, 222.0
2.64000, 237.0
2.66000, 213.0
2.68000, 222.0
2.70000, 204.0
2.72000, 214.0
2.74000, 204.0
2.76000, 218.0
2.78000, 212.0
2.80000, 204.0
2.82000, 214.0
2.84000, 198.0
2.86000, 224.0
2.88000, 198.0
2.90000, 196.0
2.92000, 195.0
2.94000, 203.0
2.96000, 203.0
2.98000, 197.0
3.00000, 211.0
3.02000, 194.0
3.04000, 176.0
3.06000, 195.0
3.08000, 214.0
3.10000, 200.0
3.12000, 200.0
3.14000, 192.0
3.16000, 204.0
3.18000, 192.0
3.20000, 204.0
3.22000, 195.0
3.24000, 173.0
3.26000, 200.0
3.28000, 182.0
3.30000, 206.0
3.32000, 187.0
3.34000, 178.0
3.36000, 195.0
3.38000, 187.0
3.40000, 192.0
3.42000, 182.0
3.44000, 171.0
3.46000, 190.0
3.48000, 192.0
3.50000, 176.0
3.52000, 165.0
3.54000, 183.0
3.56000, 185.0
3.58000, 196.0
3.60000, 178.0
3.62000, 189.0
3.64000, 191.0
3.66000, 199.0
3.68000, 185.0
3.70000, 211.0
3.72000, 177.0
3.74000, 174.0
3.76000, 175.0
3.78000, 164.0
3.80000, 181.0
3.82000, 149.0
3.84000, 152.0
3.86000, 159.0
3.88000, 172.0
3.90000, 147.0
3.92000, 148.0
3.94000, 164.0
3.96000, 171.0
3.98000, 151.0
4.00000, 167.0
4.02000, 145.0
4.04000, 175.0
4.06000, 150.0
4.08000, 160.0
4.10000, 163.0
4.12000, 153.0
4.14000, 137.0
4.16000, 150.0
4.18000, 163.0
4.20000, 154.0
4.22000, 140.0
4.24000, 163.0
4.26000, 145.0
4.28000, 145.0
4.30000, 142.0
4.32000, 149.0
4.34000, 151.0
4.36000, 135.0
4.38000, 150.0
4.40000, 140.0
4.42000, 140.0
4.44000, 145.0
4.46000, 139.0
4.48000, 151.0
4.50000, 156.0
4.52000, 134.0
4.54000, 139.0
4.56000, 152.0
4.58000, 145.0
4.60000, 132.0
4.62000, 155.0
4.64000, 162.0
4.66000, 147.0
4.68000, 138.0
4.70000, 156.0
4.72000, 140.0
4.74000, 141.0
4.76000, 127.0
4.78000, 124.0
4.80000, 132.0
4.82000, 124.0
4.84000, 125.0
4.86000, 133.0
4.88000, 141.0
4.90000, 135.0
4.92000, 134.0
4.94000, 138.0
4.96000, 123.0
4.98000, 142.0
5.00000, 120.0
5.02000, 127.0
5.04000, 135.0
5.06000, 138.0
5.08000, 116.0
5.10000, 124.0
5.12000, 132.0
5.14000, 110.0
5.16000, 122.0
5.18000, 125.0
5.20000, 128.0
5.22000, 136.0
5.24000, 144.0
5.26000, 150.0
5.28000, 208.0
5.30000, 331.0
5.32000, 590.0
5.34000, 941.0
5.36000, 1435.0
5.38000, 1989.0
5.40000, 2376.0
5.42000, 2456.0
5.44000, 2201.0
5.46000, 1778.0
5.48000, 1206.0
5.50000, 748.0
5.52000, 457.0
5.54000, 268.0
5.56000, 176.0
5.58000, 127.0
5.60000, 104.0
5.62000, 113.0
5.64000, 113.0
5.66000, 120.0
5.68000, 122.0
5.70000, 114.0
5.72000, 117.0
5.74000, 114.0
5.76000, 103.0
5.78000, 131.0
5.80000, 154.0
5.82000, 188.0
5.84000, 253.0
5.86000, 324.0
5.88000, 422.0
5.90000, 483.0
5.92000, 503.0
5.94000, 539.0
5.96000, 510.0
5.98000, 419.0
6.00000, 302.0
6.02000, 262.0
6.04000, 178.0
6.06000, 125.0
6.08000, 105.0
6.10000, 98.0
6.12000, 105.0
6.14000, 102.0
6.16000, 93.0
6.18000, 106.0
6.20000, 110.0
6.22000, 143.0
6.24000, 220.0
6.26000, 349.0
6.28000, 645.0
6.30000, 1170.0
6.32000, 1939.0
6.34000, 3055.0
6.36000, 4125.0
6.38000, 4867.0
6.40000, 5199.0
6.42000, 5009.0
6.44000, 4228.0
6.46000, 3186.0
6.48000, 2145.0
6.50000, 1292.0
6.52000, 703.0
6.54000, 350.0
6.56000, 205.0
6.58000, 132.0
6.60000, 115.0
6.62000, 86.0
6.64000, 94.0
6.66000, 85.0
6.68000, 76.0
6.70000, 67.0
6.72000, 84.0
6.74000, 74.0
6.76000, 81.0
6.78000, 90.0
6.80000, 86.0
6.82000, 95.0
6.84000, 87.0
6.86000, 111.0
6.88000, 91.0
6.90000, 121.0
6.92000, 170.0
6.94000, 231.0
6.96000, 291.0
6.98000, 401.0
7.00000, 527.0
7.02000, 597.0
7.04000, 733.0
7.06000, 723.0
7.08000, 695.0
7.10000, 555.0
7.12000, 464.0
7.14000, 328.0
7.16000, 234.0
7.18000, 135.0
7.20000, 102.0
7.22000, 90.0
7.24000, 86.0
7.26000, 71.0
7.28000, 61.0
7.30000, 75.0
7.32000, 95.0
7.34000, 117.0
7.36000, 191.0
7.38000, 261.0
7.40000, 352.0
7.42000, 476.0
7.44000, 550.0
7.46000, 668.0
7.48000, 663.0
7.50000, 627.0
7.52000, 518.0
7.54000, 435.0
7.56000, 291.0
7.58000, 184.0
7.60000, 149.0
7.62000, 95.0
7.64000, 83.0
7.66000, 59.0
7.68000, 63.0
7.70000, 59.0
7.72000, 59.0
7.74000, 62.0
7.76000, 67.0
7.78000, 57.0
7.80000, 58.0
7.82000, 60.0
7.84000, 54.0
7.86000, 49.0
7.88000, 57.0
7.90000, 58.0
7.92000, 76.0
7.94000, 60.0
7.96000, 69.0
7.98000, 58.0
8.00000, 69.0
8.02000, 67.0
8.04000, 79.0
8.06000, 68.0
8.08000, 71.0
8.10000, 67.0
8.12000, 79.0
8.14000, 73.0
8.16000, 84.0
8.18000, 116.0
8.20000, 119.0
8.22000, 127.0
8.24000, 138.0
8.26000, 132.0
8.28000, 136.0
8.30000, 106.0
8.32000, 97.0
8.34000, 86.0
8.36000, 64.0
8.38000, 64.0
8.40000, 58.0
8.42000, 54.0
8.44000, 61.0
8.46000, 51.0
8.48000, 54.0
8.50000, 55.0
8.52000, 46.0
8.54000, 49.0
8.56000, 52.0
8.58000, 53.0
8.60000, 47.0
8.62000, 48.0
8.64000, 49.0
8.66000, 56.0
8.68000, 45.0
8.70000, 47.0
8.72000, 44.0
8.74000, 49.0
8.76000, 34.0
8.78000, 39.0
8.80000, 37.0
8.82000, 52.0
8.84000, 40.0
8.86000, 45.0
8.88000, 44.0
8.90000, 50.0
8.92000, 44.0
8.94000, 53.0
8.96000, 47.0
8.98000, 39.0
9.00000, 46.0
9.02000, 39.0
9.04000, 44.0
9.06000, 40.0
9.08000, 47.0
9.10000, 43.0
9.12000, 50.0
9.14000, 45.0
9.16000, 41.0
9.18000, 44.0
9.20000, 49.0
9.22000, 40.0
9.24000, 49.0
9.26000, 38.0
9.28000, 33.0
9.30000, 42.0
9.32000, 46.0
9.34000, 53.0
9.36000, 38.0
9.38000, 46.0
9.40000, 46.0
9.42000, 41.0
9.44000, 44.0
9.46000, 39.0
9.48000, 35.0
9.50000, 45.0
9.52000, 41.0
9.54000, 35.0
9.56000, 36.0
9.58000, 56.0
9.60000, 43.0
9.62000, 38.0
9.64000, 38.0
9.66000, 44.0
9.68000, 47.0
9.70000, 47.0
9.72000, 39.0
9.74000, 30.0
9.76000, 39.0
9.78000, 42.0
9.80000, 36.0
9.82000, 40.0
9.84000, 35.0
9.86000, 43.0
9.88000, 41.0
9.90000, 32.0
9.92000, 37.0
9.94000, 35.0
9.96000, 51.0
9.98000, 45.0
10.00000, 39.0
10.02000, 44.0
10.04000, 40.0
10.06000, 41.0
10.08000, 30.0
10.10000, 37.0
10.12000, 33.0
10.14000, 32.0
10.16000, 40.0
10.18000, 34.0
10.20000, 35.0
10.22000, 39.0
10.24000, 39.0
10.26000, 28.0
10.28000, 37.0
10.30000, 38.0
10.32000, 35.0
10.34000, 35.0
10.36000, 38.0
10.38000, 27.0
10.40000, 35.0
10.42000, 42.0
10.44000, 36.0
10.46000, 30.0
10.48000, 39.0
10.50000, 40.0
10.52000, 29.0
10.54000, 37.0
10.56000, 38.0
10.58000, 34.0
10.60000, 35.0
10.62000, 37.0
10.64000, 36.0
10.66000, 30.0
10.68000, 38.0
10.70000, 33.0
10.72000, 32.0
10.74000, 38.0
10.76000, 35.0
10.78000, 31.0
10.80000, 36.0
10.82000, 34.0
10.84000, 32.0
10.86000, 28.0
10.88000, 27.0
10.90000, 25.0
10.92000, 34.0
10.94000, 34.0
10.96000, 28.0
10.98000, 27.0
11.00000, 31.0
11.02000, 27.0
11.04000, 34.0
11.06000, 21.0
11.08000, 30.0
11.10000, 30.0
11.12000, 23.0
11.14000, 31.0
11.16000, 27.0
11.18000, 26.0
11.20000, 21.0
11.22000, 29.0
11.24000, 21.0
11.26000, 30.0
11.28000, 26.0
11.30000, 29.0
11.32000, 26.0
11.34000, 27.0
11.36000, 34.0
11.38000, 26.0
11.40000, 30.0
11.42000, 29.0
11.44000, 26.0
11.46000, 27.0
11.48000, 31.0
11.50000, 17.0
11.52000, 33.0
11.54000, 27.0
11.56000, 22.0
11.58000, 26.0
11.60000, 25.0
11.62000, 27.0
11.64000, 24.0
11.66000, 27.0
11.68000, 26.0
11.70000, 26.0
11.72000, 30.0
11.74000, 26.0
11.76000, 24.0
11.78000, 24.0
11.80000, 29.0
11.82000, 34.0
11.84000, 27.0
11.86000, 22.0
11.88000, 26.0
11.90000, 27.0
11.92000, 25.0
11.94000, 23.0
11.96000, 22.0
11.98000, 29.0
12.00000, 24.0
12.02000, 22.0
12.04000, 19.0
12.06000, 19.0
12.08000, 20.0
12.10000, 29.0
12.12000, 27.0
12.14000, 22.0
12.16000, 21.0
12.18000, 23.0
12.20000, 22.0
12.22000, 22.0
12.24000, 23.0
12.26000, 20.0
12.28000, 25.0
12.30000, 16.0
12.32000, 27.0
12.34000, 20.0
12.36000, 24.0
12.38000, 29.0
12.40000, 18.0
12.42000, 23.0
12.44000, 27.0
12.46000, 17.0
12.48000, 19.0
12.50000, 24.0
12.52000, 18.0
12.54000, 21.0
12.56000, 22.0
12.58000, 25.0
12.60000, 21.0
12.62000, 16.0
12.64000, 16.0
12.66000, 23.0
12.68000, 21.0
12.70000, 16.0
12.72000, 17.0
12.74000, 20.0
12.76000, 20.0
12.78000, 21.0
12.80000, 19.0
12.82000, 25.0
12.84000, 26.0
12.86000, 17.0
12.88000, 24.0
12.90000, 22.0
12.92000, 26.0
12.94000, 19.0
12.96000, 18.0
12.98000, 17.0
13.00000, 28.0
13.02000, 19.0
13.04000, 18.0
13.06000, 17.0
13.08000, 15.0
13.10000, 27.0
13.12000, 18.0
13.14000, 18.0
13.16000, 21.0
13.18000, 21.0
13.20000, 17.0
13.22000, 15.0
13.24000, 17.0
13.26000, 23.0
13.28000, 17.0
13.30000, 9.0
13.32000, 15.0
13.34000, 20.0
13.36000, 18.0
13.38000, 17.0
13.40000, 17.0
13.42000, 13.0
13.44000, 16.0
13.46000, 17.0
13.48000, 16.0
13.50000, 15.0
13.52000, 21.0
13.54000, 16.0
13.56000, 14.0
13.58000, 21.0
13.60000, 16.0
13.62000, 14.0
13.64000, 12.0
13.66000, 12.0
13.68000, 13.0
13.70000, 18.0
13.72000, 17.0
13.74000, 14.0
13.76000, 10.0
13.78000, 16.0
13.80000, 13.0
13.82000, 17.0
13.84000, 13.0
13.86000, 15.0
13.88000, 20.0
13.90000, 14.0
13.92000, 9.0
13.94000, 10.0
13.96000, 16.0
13.98000, 13.0
14.00000, 17.0
14.02000, 11.0
14.04000, 11.0
14.06000, 11.0
14.08000, 11.0
14.10000, 14.0
14.12000, 8.0
14.14000, 14.0
14.16000, 15.0
14.18000, 14.0
14.20000, 13.0
14.22000, 15.0
14.24000, 12.0
14.26000, 11.0
14.28000, 13.0
14.30000, 12.0
14.32000, 14.0
14.34000, 14.0
14.36000, 14.0
14.38000, 13.0
14.40000, 14.0
14.42000, 15.0
14.44000, 12.0
14.46000, 11.0
14.48000, 10.0
14.50000, 11.0
14.52000, 17.0
14.54000, 14.0
14.56000, 11.0
14.58000, 11.0
14.60000, 8.0
14.62000, 12.0
14.64000, 15.0
14.66000, 14.0
14.68000, 12.0
14.70000, 10.0
14.72000, 12.0
14.74000, 12.0
14.76000, 8.0
14.78000, 8.0
14.80000, 9.0
14.82000, 9.0
14.84000, 14.0
14.86000, 12.0
14.88000, 8.0
14.90000, 14.0
14.92000, 10.0
14.94000, 7.0
14.96000, 7.0
14.98000, 9.0
15.00000, 8.0
15.02000, 7.0
15.04000, 11.0
15.06000, 8.0
15.08000, 11.0
15.10000, 4.0
15.12000, 9.0
15.14000, 8.0
15.16000, 5.0
15.18000, 12.0
15.20000, 8.0
15.22000, 8.0
15.24000, 7.0
15.26000, 9.0
15.28000, 11.0
15.30000, 9.0
15.32000, 7.0
15.34000, 7.0
15.36000, 13.0
15.38000, 13.0
15.40000, 11.0
15.42000, 11.0
15.44000, 9.0
15.46000, 9.0
15.48000, 7.0
15.50000, 10.0
15.52000, 10.0
15.54000, 8.0
15.56000, 8.0
15.58000, 12.0
15.60000, 6.0
15.62000, 10.0
15.64000, 9.0
15.66000, 10.0
15.68000, 9.0
15.70000, 6.0
15.72000, 5.0
15.74000, 7.0
15.76000, 5.0
15.78000, 6.0
15.80000, 6.0
15.82000, 6.0
15.84000, 4.0
15.86000, 10.0
15.88000, 7.0
15.90000, 8.0
15.92000, 8.0
15.94000, 7.0
15.96000, 10.0
15.98000, 10.0
16.00000, 4.0
16.02000, 8.0
16.04000, 8.0
16.06000, 5.0
16.08000, 9.0
16.10000, 7.0
16.12000, 5.0
16.14000, 10.0
16.16000, 8.0
16.18000, 6.0
16.20000, 5.0
16.22000, 5.0
16.24000, 3.0
16.26000, 7.0
16.28000, 5.0
16.30000, 5.0
16.32000, 5.0
16.34000, 4.0
16.36000, 5.0
16.38000, 8.0
16.40000, 6.0
16.42000, 6.0
16.44000, 5.0
16.46000, 6.0
16.48000, 4.0
16.50000, 4.0
16.52000, 6.0
16.54000, 5.0
16.56000, 4.0
16.58000, 5.0
16.60000, 5.0
16.62000, 2.0
16.64000, 3.0
16.66000, 5.0
16.68000, 5.0
16.70000, 4.0
16.72000, 3.0
16.74000, 5.0
16.76000, 7.0
16.78000, 5.0
16.80000, 5.0
16.82000, 5.0
16.84000, 7.0
16.86000, 3.0
16.88000, 2.0
16.90000, 4.0
16.92000, 3.0
16.94000, 6.0
16.96000, 3.0
16.98000, 5.0
17.00000, 5.0
17.02000, 4.0
17.04000, 4.0
17.06000, 5.0
17.08000, 4.0
17.10000, 3.0
17.12000, 5.0
17.14000, 4.0
17.16000, 5.0
17.18000, 4.0
17.20000, 6.0
17.22000, 5.0
17.24000, 7.0
17.26000, 5.0
17.28000, 5.0
17.30000, 3.0
17.32000, 3.0
17.34000, 2.0
17.36000, 5.0
17.38000, 2.0
17.40000, 3.0
17.42000, 1.0
17.44000, 2.0
17.46000, 3.0
17.48000, 2.0
17.50000, 3.0
17.52000, 5.0
17.54000, 2.0
17.56000, 2.0
17.58000, 3.0
17.60000, 3.0
17.62000, 5.0
17.64000, 2.0
17.66000, 2.0
17.68000, 3.0
17.70000, 3.0
17.72000, 3.0
17.74000, 4.0
17.76000, 1.0
17.78000, 1.0
17.80000, 3.0
17.82000, 6.0
17.84000, 3.0
17.86000, 5.0
17.88000, 3.0
17.90000, 1.0
17.92000, 1.0
17.94000, 2.0
17.96000, 1.0
17.98000, 4.0
18.00000, 4.0
18.02000, 3.0
18.04000, 3.0
18.06000, 3.0
18.08000, 2.0
18.10000, 4.0
18.12000, 2.0
18.14000, 2.0
18.16000, 1.0
18.18000, 1.0
18.20000, 0.0
18.22000, 2.0
18.24000, 2.0
18.26000, 2.0
18.28000, 3.0
18.30000, 3.0
18.32000, 1.0
18.34000, 2.0
18.36000, 2.0
18.38000, 1.0
18.40000, 2.0
18.42000, 1.0
18.44000, 3.0
18.46000, 3.0
18.48000, 0.0
18.50000, 1.0
18.52000, 2.0
18.54000, 0.0
18.56000, 1.0
18.58000, 1.0
18.60000, 3.0
18.62000, 4.0
18.64000, 2.0
18.66000, 0.0
18.68000, 1.0
18.70000, 1.0
18.72000, 0.0
18.74000, 1.0
18.76000, 2.0
18.78000, 1.0
18.80000, 1.0
18.82000, 1.0
18.84000, 0.0
18.86000, 0.0
18.88000, 2.0
18.90000, 3.0
18.92000, 2.0
18.94000, 2.0
18.96000, 1.0
18.98000, 1.0
19.00000, 0.0
19.02000, 1.0
19.04000, 0.0
19.06000, 1.0
19.08000, 2.0
19.10000, 1.0
19.12000, 1.0
19.14000, 1.0
19.16000, 0.0
19.18000, 1.0
19.20000, 1.0
19.22000, 2.0
19.24000, 2.0
19.26000, 1.0
19.28000, 0.0
19.30000, 1.0
19.32000, 2.0
19.34000, 1.0
19.36000, 1.0
19.38000, 2.0
19.40000, 0.0
19.42000, 1.0
19.44000, 0.0
19.46000, 1.0
19.48000, 1.0
19.50000, 0.0
19.52000, 1.0
19.54000, 0.0
19.56000, 1.0
19.58000, 0.0
19.60000, 0.0
19.62000, 0.0
19.64000, 1.0
19.66000, 0.0
19.68000, 1.0
19.70000, 0.0
19.72000, 0.0
19.74000, 0.0
19.76000, 1.0
19.78000, 0.0
19.80000, 0.0
19.82000, 0.0
19.84000, 0.0
19.86000, 1.0
19.88000, 0.0
19.90000, 0.0
19.92000, 0.0
19.94000, 0.0
19.96000, 1.0
19.98000, 0.0
20.00000, 0.0
20.02000, 0.0
20.04000, 0.0
20.06000, 0.0
20.08000, 0.0
20.10000, 0.0
20.12000, 0.0
20.14000, 0.0
20.16000, 0.0
20.18000, 0.0
20.20000, 0.0
20.22000, 0.0
20.24000, 0.0
20.26000, 0.0
20.27000, 0.0
#ENDOFDATA   :